!      i  Frequency,cm-1  Ampl(FT_ACF)(singlesided)
       1          0.00      0.000131
       2          2.08      0.025916
       3          4.17      0.039530
       4          6.25      0.010242
       5          8.33      0.010576
       6         10.42      0.005274
       7         12.50      0.013552
       8         14.58      0.004733
       9         16.67      0.013603
      10         18.75      0.003843
      11         20.83      0.012007
      12         22.92      0.004963
      13         25.00      0.003842
      14         27.08      0.010836
      15         29.17      0.018419
      16         31.25      0.007125
      17         33.33      0.004954
      18         35.42      0.007498
      19         37.50      0.001229
      20         39.58      0.000695
      21         41.67      0.001450
      22         43.75      0.013537
      23         45.83      0.001178
      24         47.92      0.002003
      25         50.00      0.021992
      26         52.08      0.003458
      27         54.17      0.002844
      28         56.25      0.018624
      29         58.33      0.006546
      30         60.42      0.005444
      31         62.50      0.010532
      32         64.58      0.017974
      33         66.67      0.005308
      34         68.75      0.017187
      35         70.83      0.014924
      36         72.92      0.020683
      37         75.00      0.009836
      38         77.08      0.023720
      39         79.17      0.012057
      40         81.25      0.009222
      41         83.33      0.004807
      42         85.42      0.004536
      43         87.50      0.005151
      44         89.58      0.004141
      45         91.67      0.004231
      46         93.75      0.003099
      47         95.83      0.002741
      48         97.92      0.010820
      49        100.00      0.004664
      50        102.08      0.003919
      51        104.17      0.004951
      52        106.25      0.011024
      53        108.33      0.004791
      54        110.42      0.006091
      55        112.50      0.007425
      56        114.58      0.003449
      57        116.67      0.007588
      58        118.75      0.006378
      59        120.83      0.002270
      60        122.92      0.003888
      61        125.00      0.005676
      62        127.08      0.000734
      63        129.17      0.005348
      64        131.25      0.002329
      65        133.33      0.006268
      66        135.42      0.002924
      67        137.50      0.014265
      68        139.58      0.002214
      69        141.67      0.002515
      70        143.75      0.006454
      71        145.83      0.006271
      72        147.92      0.002980
      73        150.00      0.005728
      74        152.08      0.007839
      75        154.17      0.006948
      76        156.25      0.006862
      77        158.33      0.004175
      78        160.42      0.007025
      79        162.50      0.013568
      80        164.58      0.007080
      81        166.67      0.004711
      82        168.75      0.003139
      83        170.83      0.002985
      84        172.92      0.008239
      85        175.00      0.008678
      86        177.08      0.005639
      87        179.17      0.002188
      88        181.25      0.003385
      89        183.33      0.009640
      90        185.42      0.012167
      91        187.50      0.008388
      92        189.58      0.005014
      93        191.67      0.008141
      94        193.75      0.004181
      95        195.83      0.004085
      96        197.92      0.004418
      97        200.00      0.007862
      98        202.08      0.002640
      99        204.17      0.003706
     100        206.25      0.007314
     101        208.33      0.011136
     102        210.42      0.004631
     103        212.50      0.005337
     104        214.58      0.003701
     105        216.67      0.007839
     106        218.75      0.005386
     107        220.83      0.006026
     108        222.92      0.004710
     109        225.00      0.004153
     110        227.08      0.004936
     111        229.17      0.004694
     112        231.25      0.005727
     113        233.33      0.003209
     114        235.42      0.004961
     115        237.50      0.004253
     116        239.58      0.004160
     117        241.67      0.003594
     118        243.75      0.004448
     119        245.83      0.003960
     120        247.92      0.003492
     121        250.00      0.003541
     122        252.08      0.003717
     123        254.17      0.002712
     124        256.25      0.004424
     125        258.33      0.003814
     126        260.42      0.003640
     127        262.50      0.003806
     128        264.58      0.003707
     129        266.67      0.003139
     130        268.75      0.003133
     131        270.83      0.003705
     132        272.92      0.003227
     133        275.00      0.003289
     134        277.08      0.003437
     135        279.17      0.003234
     136        281.25      0.002436
     137        283.33      0.003250
     138        285.42      0.003249
     139        287.50      0.003238
     140        289.58      0.003256
     141        291.67      0.003210
     142        293.75      0.003088
     143        295.83      0.002877
     144        297.92      0.002746
     145        300.00      0.002867
     146        302.08      0.002725
     147        304.17      0.002814
     148        306.25      0.002556
     149        308.33      0.002489
     150        310.42      0.003301
     151        312.50      0.002793
     152        314.58      0.002464
     153        316.67      0.002733
     154        318.75      0.002808
     155        320.83      0.002769
     156        322.92      0.002570
     157        325.00      0.002564
     158        327.08      0.002631
     159        329.17      0.002636
     160        331.25      0.002421
     161        333.33      0.002410
     162        335.42      0.002513
     163        337.50      0.002489
     164        339.58      0.002358
     165        341.67      0.002352
     166        343.75      0.002343
     167        345.83      0.002319
     168        347.92      0.002218
     169        350.00      0.002200
     170        352.08      0.002060
     171        354.17      0.002411
     172        356.25      0.002321
     173        358.33      0.002207
     174        360.42      0.002192
     175        362.50      0.002278
     176        364.58      0.002179
     177        366.67      0.002170
     178        368.75      0.002152
     179        370.83      0.002106
     180        372.92      0.002099
     181        375.00      0.002043
     182        377.08      0.002060
     183        379.17      0.002063
     184        381.25      0.002051
     185        383.33      0.002053
     186        385.42      0.002012
     187        387.50      0.001997
     188        389.58      0.001987
     189        391.67      0.001951
     190        393.75      0.001936
     191        395.83      0.001934
     192        397.92      0.001939
     193        400.00      0.001896
     194        402.08      0.001908
     195        404.17      0.001890
     196        406.25      0.001884
     197        408.33      0.001872
     198        410.42      0.001845
     199        412.50      0.001863
     200        414.58      0.001841
     201        416.67      0.001818
     202        418.75      0.001797
     203        420.83      0.001792
     204        422.92      0.001767
     205        425.00      0.001770
     206        427.08      0.001752
     207        429.17      0.001738
     208        431.25      0.001763
     209        433.33      0.001736
     210        435.42      0.001713
     211        437.50      0.001699
     212        439.58      0.001688
     213        441.67      0.001670
     214        443.75      0.001669
     215        445.83      0.001664
     216        447.92      0.001661
     217        450.00      0.001651
     218        452.08      0.001633
     219        454.17      0.001634
     220        456.25      0.001629
     221        458.33      0.001616
     222        460.42      0.001601
     223        462.50      0.001592
     224        464.58      0.001585
     225        466.67      0.001577
     226        468.75      0.001566
     227        470.83      0.001554
     228        472.92      0.001552
     229        475.00      0.001543
     230        477.08      0.001533
     231        479.17      0.001525
     232        481.25      0.001520
     233        483.33      0.001510
     234        485.42      0.001503
     235        487.50      0.001492
     236        489.58      0.001488
     237        491.67      0.001483
     238        493.75      0.001474
     239        495.83      0.001463
     240        497.92      0.001456
     241        500.00      0.001450
     242        502.08      0.001448
     243        504.17      0.001438
     244        506.25      0.001433
     245        508.33      0.001430
     246        510.42      0.001420
     247        512.50      0.001411
     248        514.58      0.001402
     249        516.67      0.001398
     250        518.75      0.001391
     251        520.83      0.001385
     252        522.92      0.001381
     253        525.00      0.001376
     254        527.08      0.001368
     255        529.17      0.001361
     256        531.25      0.001353
     257        533.33      0.001348
     258        535.42      0.001343
     259        537.50      0.001336
     260        539.58      0.001331
     261        541.67      0.001326
     262        543.75      0.001320
     263        545.83      0.001314
     264        547.92      0.001308
     265        550.00      0.001306
     266        552.08      0.001300
     267        554.17      0.001294
     268        556.25      0.001287
     269        558.33      0.001282
     270        560.42      0.001277
     271        562.50      0.001271
     272        564.58      0.001264
     273        566.67      0.001261
     274        568.75      0.001256
     275        570.83      0.001250
     276        572.92      0.001245
     277        575.00      0.001240
     278        577.08      0.001235
     279        579.17      0.001231
     280        581.25      0.001225
     281        583.33      0.001221
     282        585.42      0.001217
     283        587.50      0.001212
     284        589.58      0.001206
     285        591.67      0.001202
     286        593.75      0.001198
     287        595.83      0.001194
     288        597.92      0.001189
     289        600.00      0.001185
     290        602.08      0.001180
     291        604.17      0.001176
     292        606.25      0.001171
     293        608.33      0.001166
     294        610.42      0.001162
     295        612.50      0.001158
     296        614.58      0.001153
     297        616.67      0.001149
     298        618.75      0.001145
     299        620.83      0.001141
     300        622.92      0.001137
     301        625.00      0.001133
     302        627.08      0.001129
     303        629.17      0.001125
     304        631.25      0.001121
     305        633.33      0.001117
     306        635.42      0.001113
     307        637.50      0.001109
     308        639.58      0.001105
     309        641.67      0.001101
     310        643.75      0.001098
     311        645.83      0.001094
     312        647.92      0.001090
     313        650.00      0.001087
     314        652.08      0.001083
     315        654.17      0.001079
     316        656.25      0.001075
     317        658.33      0.001071
     318        660.42      0.001068
     319        662.50      0.001064
     320        664.58      0.001061
     321        666.67      0.001057
     322        668.75      0.001054
     323        670.83      0.001051
     324        672.92      0.001047
     325        675.00      0.001044
     326        677.08      0.001040
     327        679.17      0.001037
     328        681.25      0.001034
     329        683.33      0.001030
     330        685.42      0.001027
     331        687.50      0.001024
     332        689.58      0.001021
     333        691.67      0.001017
     334        693.75      0.001014
     335        695.83      0.001011
     336        697.92      0.001008
     337        700.00      0.001004
     338        702.08      0.001001
     339        704.17      0.000998
     340        706.25      0.000995
     341        708.33      0.000992
     342        710.42      0.000989
     343        712.50      0.000986
     344        714.58      0.000983
     345        716.67      0.000980
     346        718.75      0.000977
     347        720.83      0.000974
     348        722.92      0.000971
     349        725.00      0.000968
     350        727.08      0.000965
     351        729.17      0.000962
     352        731.25      0.000960
     353        733.33      0.000957
     354        735.42      0.000954
     355        737.50      0.000951
     356        739.58      0.000948
     357        741.67      0.000946
     358        743.75      0.000943
     359        745.83      0.000940
     360        747.92      0.000937
     361        750.00      0.000935
     362        752.08      0.000932
     363        754.17      0.000929
     364        756.25      0.000927
     365        758.33      0.000924
     366        760.42      0.000921
     367        762.50      0.000919
     368        764.58      0.000916
     369        766.67      0.000914
     370        768.75      0.000911
     371        770.83      0.000908
     372        772.92      0.000906
     373        775.00      0.000903
     374        777.08      0.000901
     375        779.17      0.000898
     376        781.25      0.000896
     377        783.33      0.000894
     378        785.42      0.000891
     379        787.50      0.000889
     380        789.58      0.000886
     381        791.67      0.000884
     382        793.75      0.000882
     383        795.83      0.000879
     384        797.92      0.000877
     385        800.00      0.000874
     386        802.08      0.000872
     387        804.17      0.000870
     388        806.25      0.000867
     389        808.33      0.000865
     390        810.42      0.000863
     391        812.50      0.000861
     392        814.58      0.000858
     393        816.67      0.000856
     394        818.75      0.000854
     395        820.83      0.000852
     396        822.92      0.000850
     397        825.00      0.000847
     398        827.08      0.000845
     399        829.17      0.000843
     400        831.25      0.000841
     401        833.33      0.000839
     402        835.42      0.000837
     403        837.50      0.000834
     404        839.58      0.000832
     405        841.67      0.000830
     406        843.75      0.000828
     407        845.83      0.000826
     408        847.92      0.000824
     409        850.00      0.000822
     410        852.08      0.000820
     411        854.17      0.000818
     412        856.25      0.000816
     413        858.33      0.000814
     414        860.42      0.000812
     415        862.50      0.000810
     416        864.58      0.000808
     417        866.67      0.000806
     418        868.75      0.000804
     419        870.83      0.000802
     420        872.92      0.000800
     421        875.00      0.000798
     422        877.08      0.000796
     423        879.17      0.000794
     424        881.25      0.000792
     425        883.33      0.000791
     426        885.42      0.000789
     427        887.50      0.000787
     428        889.58      0.000785
     429        891.67      0.000783
     430        893.75      0.000781
     431        895.83      0.000779
     432        897.92      0.000778
     433        900.00      0.000776
     434        902.08      0.000774
     435        904.17      0.000772
     436        906.25      0.000770
     437        908.33      0.000769
     438        910.42      0.000767
     439        912.50      0.000765
     440        914.58      0.000763
     441        916.67      0.000762
     442        918.75      0.000760
     443        920.83      0.000758
     444        922.92      0.000756
     445        925.00      0.000755
     446        927.08      0.000753
     447        929.17      0.000751
     448        931.25      0.000750
     449        933.33      0.000748
     450        935.42      0.000746
     451        937.50      0.000745
     452        939.58      0.000743
     453        941.67      0.000741
     454        943.75      0.000740
     455        945.83      0.000738
     456        947.92      0.000736
     457        950.00      0.000735
     458        952.08      0.000733
     459        954.17      0.000732
     460        956.25      0.000730
     461        958.33      0.000728
     462        960.42      0.000727
     463        962.50      0.000725
     464        964.58      0.000724
     465        966.67      0.000722
     466        968.75      0.000721
     467        970.83      0.000719
     468        972.92      0.000718
     469        975.00      0.000716
     470        977.08      0.000714
     471        979.17      0.000713
     472        981.25      0.000711
     473        983.33      0.000710
     474        985.42      0.000708
     475        987.50      0.000707
     476        989.58      0.000706
     477        991.67      0.000704
     478        993.75      0.000703
     479        995.83      0.000701
     480        997.92      0.000700
     481       1000.00      0.000698
     482       1002.08      0.000697
     483       1004.17      0.000695
     484       1006.25      0.000694
     485       1008.33      0.000693
     486       1010.42      0.000691
     487       1012.50      0.000690
     488       1014.58      0.000688
     489       1016.67      0.000687
     490       1018.75      0.000686
     491       1020.83      0.000684
     492       1022.92      0.000683
     493       1025.00      0.000681
     494       1027.08      0.000680
     495       1029.17      0.000679
     496       1031.25      0.000677
     497       1033.33      0.000676
     498       1035.42      0.000675
     499       1037.50      0.000673
     500       1039.58      0.000672
     501       1041.67      0.000671
     502       1043.75      0.000669
     503       1045.83      0.000668
     504       1047.92      0.000667
     505       1050.00      0.000665
     506       1052.08      0.000664
     507       1054.17      0.000663
     508       1056.25      0.000662
     509       1058.33      0.000660
     510       1060.42      0.000659
     511       1062.50      0.000658
     512       1064.58      0.000656
     513       1066.67      0.000655
     514       1068.75      0.000654
     515       1070.83      0.000653
     516       1072.92      0.000651
     517       1075.00      0.000650
     518       1077.08      0.000649
     519       1079.17      0.000648
     520       1081.25      0.000647
     521       1083.33      0.000645
     522       1085.42      0.000644
     523       1087.50      0.000643
     524       1089.58      0.000642
     525       1091.67      0.000640
     526       1093.75      0.000639
     527       1095.83      0.000638
     528       1097.92      0.000637
     529       1100.00      0.000636
     530       1102.08      0.000635
     531       1104.17      0.000633
     532       1106.25      0.000632
     533       1108.33      0.000631
     534       1110.42      0.000630
     535       1112.50      0.000629
     536       1114.58      0.000628
     537       1116.67      0.000626
     538       1118.75      0.000625
     539       1120.83      0.000624
     540       1122.92      0.000623
     541       1125.00      0.000622
     542       1127.08      0.000621
     543       1129.17      0.000620
     544       1131.25      0.000619
     545       1133.33      0.000618
     546       1135.42      0.000616
     547       1137.50      0.000615
     548       1139.58      0.000614
     549       1141.67      0.000613
     550       1143.75      0.000612
     551       1145.83      0.000611
     552       1147.92      0.000610
     553       1150.00      0.000609
     554       1152.08      0.000608
     555       1154.17      0.000607
     556       1156.25      0.000606
     557       1158.33      0.000605
     558       1160.42      0.000604
     559       1162.50      0.000602
     560       1164.58      0.000601
     561       1166.67      0.000600
     562       1168.75      0.000599
     563       1170.83      0.000598
     564       1172.92      0.000597
     565       1175.00      0.000596
     566       1177.08      0.000595
     567       1179.17      0.000594
     568       1181.25      0.000593
     569       1183.33      0.000592
     570       1185.42      0.000591
     571       1187.50      0.000590
     572       1189.58      0.000589
     573       1191.67      0.000588
     574       1193.75      0.000587
     575       1195.83      0.000586
     576       1197.92      0.000585
     577       1200.00      0.000584
     578       1202.08      0.000583
     579       1204.17      0.000582
     580       1206.25      0.000581
     581       1208.33      0.000580
     582       1210.42      0.000579
     583       1212.50      0.000579
     584       1214.58      0.000578
     585       1216.67      0.000577
     586       1218.75      0.000576
     587       1220.83      0.000575
     588       1222.92      0.000574
     589       1225.00      0.000573
     590       1227.08      0.000572
     591       1229.17      0.000571
     592       1231.25      0.000570
     593       1233.33      0.000569
     594       1235.42      0.000568
     595       1237.50      0.000567
     596       1239.58      0.000566
     597       1241.67      0.000565
     598       1243.75      0.000565
     599       1245.83      0.000564
     600       1247.92      0.000563
     601       1250.00      0.000562
     602       1252.08      0.000561
     603       1254.17      0.000560
     604       1256.25      0.000559
     605       1258.33      0.000558
     606       1260.42      0.000557
     607       1262.50      0.000557
     608       1264.58      0.000556
     609       1266.67      0.000555
     610       1268.75      0.000554
     611       1270.83      0.000553
     612       1272.92      0.000552
     613       1275.00      0.000551
     614       1277.08      0.000550
     615       1279.17      0.000550
     616       1281.25      0.000549
     617       1283.33      0.000548
     618       1285.42      0.000547
     619       1287.50      0.000546
     620       1289.58      0.000545
     621       1291.67      0.000545
     622       1293.75      0.000544
     623       1295.83      0.000543
     624       1297.92      0.000542
     625       1300.00      0.000541
     626       1302.08      0.000540
     627       1304.17      0.000540
     628       1306.25      0.000539
     629       1308.33      0.000538
     630       1310.42      0.000537
     631       1312.50      0.000536
     632       1314.58      0.000536
     633       1316.67      0.000535
     634       1318.75      0.000534
     635       1320.83      0.000533
     636       1322.92      0.000532
     637       1325.00      0.000532
     638       1327.08      0.000531
     639       1329.17      0.000530
     640       1331.25      0.000529
     641       1333.33      0.000528
     642       1335.42      0.000528
     643       1337.50      0.000527
     644       1339.58      0.000526
     645       1341.67      0.000525
     646       1343.75      0.000525
     647       1345.83      0.000524
     648       1347.92      0.000523
     649       1350.00      0.000522
     650       1352.08      0.000522
     651       1354.17      0.000521
     652       1356.25      0.000520
     653       1358.33      0.000519
     654       1360.42      0.000519
     655       1362.50      0.000518
     656       1364.58      0.000517
     657       1366.67      0.000516
     658       1368.75      0.000516
     659       1370.83      0.000515
     660       1372.92      0.000514
     661       1375.00      0.000513
     662       1377.08      0.000513
     663       1379.17      0.000512
     664       1381.25      0.000511
     665       1383.33      0.000510
     666       1385.42      0.000510
     667       1387.50      0.000509
     668       1389.58      0.000508
     669       1391.67      0.000508
     670       1393.75      0.000507
     671       1395.83      0.000506
     672       1397.92      0.000506
     673       1400.00      0.000505
     674       1402.08      0.000504
     675       1404.17      0.000503
     676       1406.25      0.000503
     677       1408.33      0.000502
     678       1410.42      0.000501
     679       1412.50      0.000501
     680       1414.58      0.000500
     681       1416.67      0.000499
     682       1418.75      0.000499
     683       1420.83      0.000498
     684       1422.92      0.000497
     685       1425.00      0.000497
     686       1427.08      0.000496
     687       1429.17      0.000495
     688       1431.25      0.000494
     689       1433.33      0.000494
     690       1435.42      0.000493
     691       1437.50      0.000493
     692       1439.58      0.000492
     693       1441.67      0.000491
     694       1443.75      0.000491
     695       1445.83      0.000490
     696       1447.92      0.000489
     697       1450.00      0.000489
     698       1452.08      0.000488
     699       1454.17      0.000487
     700       1456.25      0.000487
     701       1458.33      0.000486
     702       1460.42      0.000485
     703       1462.50      0.000485
     704       1464.58      0.000484
     705       1466.67      0.000483
     706       1468.75      0.000483
     707       1470.83      0.000482
     708       1472.92      0.000482
     709       1475.00      0.000481
     710       1477.08      0.000480
     711       1479.17      0.000480
     712       1481.25      0.000479
     713       1483.33      0.000478
     714       1485.42      0.000478
     715       1487.50      0.000477
     716       1489.58      0.000477
     717       1491.67      0.000476
     718       1493.75      0.000475
     719       1495.83      0.000475
     720       1497.92      0.000474
     721       1500.00      0.000474
     722       1502.08      0.000473
     723       1504.17      0.000472
     724       1506.25      0.000472
     725       1508.33      0.000471
     726       1510.42      0.000471
     727       1512.50      0.000470
     728       1514.58      0.000469
     729       1516.67      0.000469
     730       1518.75      0.000468
     731       1520.83      0.000468
     732       1522.92      0.000467
     733       1525.00      0.000466
     734       1527.08      0.000466
     735       1529.17      0.000465
     736       1531.25      0.000465
     737       1533.33      0.000464
     738       1535.42      0.000464
     739       1537.50      0.000463
     740       1539.58      0.000462
     741       1541.67      0.000462
     742       1543.75      0.000461
     743       1545.83      0.000461
     744       1547.92      0.000460
     745       1550.00      0.000460
     746       1552.08      0.000459
     747       1554.17      0.000458
     748       1556.25      0.000458
     749       1558.33      0.000457
     750       1560.42      0.000457
     751       1562.50      0.000456
     752       1564.58      0.000456
     753       1566.67      0.000455
     754       1568.75      0.000454
     755       1570.83      0.000454
     756       1572.92      0.000453
     757       1575.00      0.000453
     758       1577.08      0.000452
     759       1579.17      0.000452
     760       1581.25      0.000451
     761       1583.33      0.000451
     762       1585.42      0.000450
     763       1587.50      0.000450
     764       1589.58      0.000449
     765       1591.67      0.000449
     766       1593.75      0.000448
     767       1595.83      0.000448
     768       1597.92      0.000447
     769       1600.00      0.000446
     770       1602.08      0.000446
     771       1604.17      0.000445
     772       1606.25      0.000445
     773       1608.33      0.000444
     774       1610.42      0.000444
     775       1612.50      0.000443
     776       1614.58      0.000443
     777       1616.67      0.000442
     778       1618.75      0.000442
     779       1620.83      0.000441
     780       1622.92      0.000441
     781       1625.00      0.000440
     782       1627.08      0.000440
     783       1629.17      0.000439
     784       1631.25      0.000439
     785       1633.33      0.000438
     786       1635.42      0.000438
     787       1637.50      0.000437
     788       1639.58      0.000437
     789       1641.67      0.000436
     790       1643.75      0.000436
     791       1645.83      0.000435
     792       1647.92      0.000435
     793       1650.00      0.000434
     794       1652.08      0.000434
     795       1654.17      0.000433
     796       1656.25      0.000433
     797       1658.33      0.000432
     798       1660.42      0.000432
     799       1662.50      0.000431
     800       1664.58      0.000431
     801       1666.67      0.000430
     802       1668.75      0.000430
     803       1670.83      0.000429
     804       1672.92      0.000429
     805       1675.00      0.000428
     806       1677.08      0.000428
     807       1679.17      0.000428
     808       1681.25      0.000427
     809       1683.33      0.000427
     810       1685.42      0.000426
     811       1687.50      0.000426
     812       1689.58      0.000425
     813       1691.67      0.000425
     814       1693.75      0.000424
     815       1695.83      0.000424
     816       1697.92      0.000423
     817       1700.00      0.000423
     818       1702.08      0.000422
     819       1704.17      0.000422
     820       1706.25      0.000421
     821       1708.33      0.000421
     822       1710.42      0.000421
     823       1712.50      0.000420
     824       1714.58      0.000420
     825       1716.67      0.000419
     826       1718.75      0.000419
     827       1720.83      0.000418
     828       1722.92      0.000418
     829       1725.00      0.000417
     830       1727.08      0.000417
     831       1729.17      0.000417
     832       1731.25      0.000416
     833       1733.33      0.000416
     834       1735.42      0.000415
     835       1737.50      0.000415
     836       1739.58      0.000414
     837       1741.67      0.000414
     838       1743.75      0.000413
     839       1745.83      0.000413
     840       1747.92      0.000413
     841       1750.00      0.000412
     842       1752.08      0.000412
     843       1754.17      0.000411
     844       1756.25      0.000411
     845       1758.33      0.000410
     846       1760.42      0.000410
     847       1762.50      0.000410
     848       1764.58      0.000409
     849       1766.67      0.000409
     850       1768.75      0.000408
     851       1770.83      0.000408
     852       1772.92      0.000408
     853       1775.00      0.000407
     854       1777.08      0.000407
     855       1779.17      0.000406
     856       1781.25      0.000406
     857       1783.33      0.000405
     858       1785.42      0.000405
     859       1787.50      0.000405
     860       1789.58      0.000404
     861       1791.67      0.000404
     862       1793.75      0.000403
     863       1795.83      0.000403
     864       1797.92      0.000403
     865       1800.00      0.000402
     866       1802.08      0.000402
     867       1804.17      0.000401
     868       1806.25      0.000401
     869       1808.33      0.000401
     870       1810.42      0.000400
     871       1812.50      0.000400
     872       1814.58      0.000399
     873       1816.67      0.000399
     874       1818.75      0.000399
     875       1820.83      0.000398
     876       1822.92      0.000398
     877       1825.00      0.000397
     878       1827.08      0.000397
     879       1829.17      0.000397
     880       1831.25      0.000396
     881       1833.33      0.000396
     882       1835.42      0.000395
     883       1837.50      0.000395
     884       1839.58      0.000395
     885       1841.67      0.000394
     886       1843.75      0.000394
     887       1845.83      0.000393
     888       1847.92      0.000393
     889       1850.00      0.000393
     890       1852.08      0.000392
     891       1854.17      0.000392
     892       1856.25      0.000392
     893       1858.33      0.000391
     894       1860.42      0.000391
     895       1862.50      0.000390
     896       1864.58      0.000390
     897       1866.67      0.000390
     898       1868.75      0.000389
     899       1870.83      0.000389
     900       1872.92      0.000389
     901       1875.00      0.000388
     902       1877.08      0.000388
     903       1879.17      0.000387
     904       1881.25      0.000387
     905       1883.33      0.000387
     906       1885.42      0.000386
     907       1887.50      0.000386
     908       1889.58      0.000386
     909       1891.67      0.000385
     910       1893.75      0.000385
     911       1895.83      0.000385
     912       1897.92      0.000384
     913       1900.00      0.000384
     914       1902.08      0.000384
     915       1904.17      0.000383
     916       1906.25      0.000383
     917       1908.33      0.000382
     918       1910.42      0.000382
     919       1912.50      0.000382
     920       1914.58      0.000381
     921       1916.67      0.000381
     922       1918.75      0.000381
     923       1920.83      0.000380
     924       1922.92      0.000380
     925       1925.00      0.000380
     926       1927.08      0.000379
     927       1929.17      0.000379
     928       1931.25      0.000379
     929       1933.33      0.000378
     930       1935.42      0.000378
     931       1937.50      0.000378
     932       1939.58      0.000377
     933       1941.67      0.000377
     934       1943.75      0.000377
     935       1945.83      0.000376
     936       1947.92      0.000376
     937       1950.00      0.000375
     938       1952.08      0.000375
     939       1954.17      0.000375
     940       1956.25      0.000375
     941       1958.33      0.000374
     942       1960.42      0.000374
     943       1962.50      0.000373
     944       1964.58      0.000373
     945       1966.67      0.000373
     946       1968.75      0.000372
     947       1970.83      0.000372
     948       1972.92      0.000372
     949       1975.00      0.000372
     950       1977.08      0.000371
     951       1979.17      0.000371
     952       1981.25      0.000371
     953       1983.33      0.000370
     954       1985.42      0.000370
     955       1987.50      0.000370
     956       1989.58      0.000369
     957       1991.67      0.000369
     958       1993.75      0.000369
     959       1995.83      0.000368
     960       1997.92      0.000368
     961       2000.00      0.000368
     962       2002.08      0.000367
     963       2004.17      0.000367
     964       2006.25      0.000367
     965       2008.33      0.000366
     966       2010.42      0.000366
     967       2012.50      0.000366
     968       2014.58      0.000365
     969       2016.67      0.000365
     970       2018.75      0.000365
     971       2020.83      0.000364
     972       2022.92      0.000364
     973       2025.00      0.000364
     974       2027.08      0.000364
     975       2029.17      0.000363
     976       2031.25      0.000363
     977       2033.33      0.000363
     978       2035.42      0.000362
     979       2037.50      0.000362
     980       2039.58      0.000362
     981       2041.67      0.000361
     982       2043.75      0.000361
     983       2045.83      0.000361
     984       2047.92      0.000361
     985       2050.00      0.000360
     986       2052.08      0.000360
     987       2054.17      0.000360
     988       2056.25      0.000359
     989       2058.33      0.000359
     990       2060.42      0.000359
     991       2062.50      0.000358
     992       2064.58      0.000358
     993       2066.67      0.000358
     994       2068.75      0.000358
     995       2070.83      0.000357
     996       2072.92      0.000357
     997       2075.00      0.000357
     998       2077.08      0.000356
     999       2079.17      0.000356
    1000       2081.25      0.000356
    1001       2083.33      0.000355
    1002       2085.42      0.000355
    1003       2087.50      0.000355
    1004       2089.58      0.000355
    1005       2091.67      0.000354
    1006       2093.75      0.000354
    1007       2095.83      0.000354
    1008       2097.92      0.000353
    1009       2100.00      0.000353
    1010       2102.08      0.000353
    1011       2104.17      0.000353
    1012       2106.25      0.000352
    1013       2108.33      0.000352
    1014       2110.42      0.000352
    1015       2112.50      0.000351
    1016       2114.58      0.000351
    1017       2116.67      0.000351
    1018       2118.75      0.000351
    1019       2120.83      0.000350
    1020       2122.92      0.000350
    1021       2125.00      0.000350
    1022       2127.08      0.000350
    1023       2129.17      0.000349
    1024       2131.25      0.000349
    1025       2133.33      0.000349
    1026       2135.42      0.000348
    1027       2137.50      0.000348
    1028       2139.58      0.000348
    1029       2141.67      0.000348
    1030       2143.75      0.000347
    1031       2145.83      0.000347
    1032       2147.92      0.000347
    1033       2150.00      0.000347
    1034       2152.08      0.000346
    1035       2154.17      0.000346
    1036       2156.25      0.000346
    1037       2158.33      0.000345
    1038       2160.42      0.000345
    1039       2162.50      0.000345
    1040       2164.58      0.000345
    1041       2166.67      0.000344
    1042       2168.75      0.000344
    1043       2170.83      0.000344
    1044       2172.92      0.000344
    1045       2175.00      0.000343
    1046       2177.08      0.000343
    1047       2179.17      0.000343
    1048       2181.25      0.000343
    1049       2183.33      0.000342
    1050       2185.42      0.000342
    1051       2187.50      0.000342
    1052       2189.58      0.000342
    1053       2191.67      0.000341
    1054       2193.75      0.000341
    1055       2195.83      0.000341
    1056       2197.92      0.000341
    1057       2200.00      0.000340
    1058       2202.08      0.000340
    1059       2204.17      0.000340
    1060       2206.25      0.000340
    1061       2208.33      0.000339
    1062       2210.42      0.000339
    1063       2212.50      0.000339
    1064       2214.58      0.000338
    1065       2216.67      0.000338
    1066       2218.75      0.000338
    1067       2220.83      0.000338
    1068       2222.92      0.000338
    1069       2225.00      0.000337
    1070       2227.08      0.000337
    1071       2229.17      0.000337
    1072       2231.25      0.000336
    1073       2233.33      0.000336
    1074       2235.42      0.000336
    1075       2237.50      0.000336
    1076       2239.58      0.000336
    1077       2241.67      0.000335
    1078       2243.75      0.000335
    1079       2245.83      0.000335
    1080       2247.92      0.000335
    1081       2250.00      0.000334
    1082       2252.08      0.000334
    1083       2254.17      0.000334
    1084       2256.25      0.000334
    1085       2258.33      0.000333
    1086       2260.42      0.000333
    1087       2262.50      0.000333
    1088       2264.58      0.000333
    1089       2266.67      0.000332
    1090       2268.75      0.000332
    1091       2270.83      0.000332
    1092       2272.92      0.000332
    1093       2275.00      0.000331
    1094       2277.08      0.000331
    1095       2279.17      0.000331
    1096       2281.25      0.000331
    1097       2283.33      0.000331
    1098       2285.42      0.000330
    1099       2287.50      0.000330
    1100       2289.58      0.000330
    1101       2291.67      0.000330
    1102       2293.75      0.000329
    1103       2295.83      0.000329
    1104       2297.92      0.000329
    1105       2300.00      0.000329
    1106       2302.08      0.000328
    1107       2304.17      0.000328
    1108       2306.25      0.000328
    1109       2308.33      0.000328
    1110       2310.42      0.000328
    1111       2312.50      0.000327
    1112       2314.58      0.000327
    1113       2316.67      0.000327
    1114       2318.75      0.000327
    1115       2320.83      0.000326
    1116       2322.92      0.000326
    1117       2325.00      0.000326
    1118       2327.08      0.000326
    1119       2329.17      0.000326
    1120       2331.25      0.000325
    1121       2333.33      0.000325
    1122       2335.42      0.000325
    1123       2337.50      0.000325
    1124       2339.58      0.000324
    1125       2341.67      0.000324
    1126       2343.75      0.000324
    1127       2345.83      0.000324
    1128       2347.92      0.000324
    1129       2350.00      0.000323
    1130       2352.08      0.000323
    1131       2354.17      0.000323
    1132       2356.25      0.000323
    1133       2358.33      0.000323
    1134       2360.42      0.000322
    1135       2362.50      0.000322
    1136       2364.58      0.000322
    1137       2366.67      0.000322
    1138       2368.75      0.000321
    1139       2370.83      0.000321
    1140       2372.92      0.000321
    1141       2375.00      0.000321
    1142       2377.08      0.000321
    1143       2379.17      0.000320
    1144       2381.25      0.000320
    1145       2383.33      0.000320
    1146       2385.42      0.000320
    1147       2387.50      0.000320
    1148       2389.58      0.000319
    1149       2391.67      0.000319
    1150       2393.75      0.000319
    1151       2395.83      0.000319
    1152       2397.92      0.000319
    1153       2400.00      0.000318
    1154       2402.08      0.000318
    1155       2404.17      0.000318
    1156       2406.25      0.000318
    1157       2408.33      0.000318
    1158       2410.42      0.000317
    1159       2412.50      0.000317
    1160       2414.58      0.000317
    1161       2416.67      0.000317
    1162       2418.75      0.000317
    1163       2420.83      0.000316
    1164       2422.92      0.000316
    1165       2425.00      0.000316
    1166       2427.08      0.000316
    1167       2429.17      0.000316
    1168       2431.25      0.000315
    1169       2433.33      0.000315
    1170       2435.42      0.000315
    1171       2437.50      0.000315
    1172       2439.58      0.000314
    1173       2441.67      0.000314
    1174       2443.75      0.000314
    1175       2445.83      0.000314
    1176       2447.92      0.000314
    1177       2450.00      0.000314
    1178       2452.08      0.000313
    1179       2454.17      0.000313
    1180       2456.25      0.000313
    1181       2458.33      0.000313
    1182       2460.42      0.000313
    1183       2462.50      0.000312
    1184       2464.58      0.000312
    1185       2466.67      0.000312
    1186       2468.75      0.000312
    1187       2470.83      0.000312
    1188       2472.92      0.000311
    1189       2475.00      0.000311
    1190       2477.08      0.000311
    1191       2479.17      0.000311
    1192       2481.25      0.000311
    1193       2483.33      0.000310
    1194       2485.42      0.000310
    1195       2487.50      0.000310
    1196       2489.58      0.000310
    1197       2491.67      0.000310
    1198       2493.75      0.000310
    1199       2495.83      0.000309
    1200       2497.92      0.000309
    1201       2500.00      0.000309
    1202       2502.08      0.000309
    1203       2504.17      0.000309
    1204       2506.25      0.000308
    1205       2508.33      0.000308
    1206       2510.42      0.000308
    1207       2512.50      0.000308
    1208       2514.58      0.000308
    1209       2516.67      0.000308
    1210       2518.75      0.000307
    1211       2520.83      0.000307
    1212       2522.92      0.000307
    1213       2525.00      0.000307
    1214       2527.08      0.000307
    1215       2529.17      0.000306
    1216       2531.25      0.000306
    1217       2533.33      0.000306
    1218       2535.42      0.000306
    1219       2537.50      0.000306
    1220       2539.58      0.000306
    1221       2541.67      0.000305
    1222       2543.75      0.000305
    1223       2545.83      0.000305
    1224       2547.92      0.000305
    1225       2550.00      0.000305
    1226       2552.08      0.000305
    1227       2554.17      0.000304
    1228       2556.25      0.000304
    1229       2558.33      0.000304
    1230       2560.42      0.000304
    1231       2562.50      0.000304
    1232       2564.58      0.000303
    1233       2566.67      0.000303
    1234       2568.75      0.000303
    1235       2570.83      0.000303
    1236       2572.92      0.000303
    1237       2575.00      0.000303
    1238       2577.08      0.000302
    1239       2579.17      0.000302
    1240       2581.25      0.000302
    1241       2583.33      0.000302
    1242       2585.42      0.000302
    1243       2587.50      0.000302
    1244       2589.58      0.000301
    1245       2591.67      0.000301
    1246       2593.75      0.000301
    1247       2595.83      0.000301
    1248       2597.92      0.000301
    1249       2600.00      0.000301
    1250       2602.08      0.000300
    1251       2604.17      0.000300
    1252       2606.25      0.000300
    1253       2608.33      0.000300
    1254       2610.42      0.000300
    1255       2612.50      0.000300
    1256       2614.58      0.000299
    1257       2616.67      0.000299
    1258       2618.75      0.000299
    1259       2620.83      0.000299
    1260       2622.92      0.000299
    1261       2625.00      0.000299
    1262       2627.08      0.000298
    1263       2629.17      0.000298
    1264       2631.25      0.000298
    1265       2633.33      0.000298
    1266       2635.42      0.000298
    1267       2637.50      0.000298
    1268       2639.58      0.000298
    1269       2641.67      0.000297
    1270       2643.75      0.000297
    1271       2645.83      0.000297
    1272       2647.92      0.000297
    1273       2650.00      0.000297
    1274       2652.08      0.000297
    1275       2654.17      0.000296
    1276       2656.25      0.000296
    1277       2658.33      0.000296
    1278       2660.42      0.000296
    1279       2662.50      0.000296
    1280       2664.58      0.000296
    1281       2666.67      0.000295
    1282       2668.75      0.000295
    1283       2670.83      0.000295
    1284       2672.92      0.000295
    1285       2675.00      0.000295
    1286       2677.08      0.000295
    1287       2679.17      0.000295
    1288       2681.25      0.000294
    1289       2683.33      0.000294
    1290       2685.42      0.000294
    1291       2687.50      0.000294
    1292       2689.58      0.000294
    1293       2691.67      0.000294
    1294       2693.75      0.000293
    1295       2695.83      0.000293
    1296       2697.92      0.000293
    1297       2700.00      0.000293
    1298       2702.08      0.000293
    1299       2704.17      0.000293
    1300       2706.25      0.000293
    1301       2708.33      0.000292
    1302       2710.42      0.000292
    1303       2712.50      0.000292
    1304       2714.58      0.000292
    1305       2716.67      0.000292
    1306       2718.75      0.000292
    1307       2720.83      0.000292
    1308       2722.92      0.000291
    1309       2725.00      0.000291
    1310       2727.08      0.000291
    1311       2729.17      0.000291
    1312       2731.25      0.000291
    1313       2733.33      0.000291
    1314       2735.42      0.000291
    1315       2737.50      0.000290
    1316       2739.58      0.000290
    1317       2741.67      0.000290
    1318       2743.75      0.000290
    1319       2745.83      0.000290
    1320       2747.92      0.000290
    1321       2750.00      0.000290
    1322       2752.08      0.000289
    1323       2754.17      0.000289
    1324       2756.25      0.000289
    1325       2758.33      0.000289
    1326       2760.42      0.000289
    1327       2762.50      0.000289
    1328       2764.58      0.000289
    1329       2766.67      0.000288
    1330       2768.75      0.000288
    1331       2770.83      0.000288
    1332       2772.92      0.000288
    1333       2775.00      0.000288
    1334       2777.08      0.000288
    1335       2779.17      0.000288
    1336       2781.25      0.000287
    1337       2783.33      0.000287
    1338       2785.42      0.000287
    1339       2787.50      0.000287
    1340       2789.58      0.000287
    1341       2791.67      0.000287
    1342       2793.75      0.000287
    1343       2795.83      0.000287
    1344       2797.92      0.000286
    1345       2800.00      0.000286
    1346       2802.08      0.000286
    1347       2804.17      0.000286
    1348       2806.25      0.000286
    1349       2808.33      0.000286
    1350       2810.42      0.000286
    1351       2812.50      0.000285
    1352       2814.58      0.000285
    1353       2816.67      0.000285
    1354       2818.75      0.000285
    1355       2820.83      0.000285
    1356       2822.92      0.000285
    1357       2825.00      0.000285
    1358       2827.08      0.000285
    1359       2829.17      0.000284
    1360       2831.25      0.000284
    1361       2833.33      0.000284
    1362       2835.42      0.000284
    1363       2837.50      0.000284
    1364       2839.58      0.000284
    1365       2841.67      0.000284
    1366       2843.75      0.000284
    1367       2845.83      0.000283
    1368       2847.92      0.000283
    1369       2850.00      0.000283
    1370       2852.08      0.000283
    1371       2854.17      0.000283
    1372       2856.25      0.000283
    1373       2858.33      0.000283
    1374       2860.42      0.000283
    1375       2862.50      0.000282
    1376       2864.58      0.000282
    1377       2866.67      0.000282
    1378       2868.75      0.000282
    1379       2870.83      0.000282
    1380       2872.92      0.000282
    1381       2875.00      0.000282
    1382       2877.08      0.000282
    1383       2879.17      0.000281
    1384       2881.25      0.000281
    1385       2883.33      0.000281
    1386       2885.42      0.000281
    1387       2887.50      0.000281
    1388       2889.58      0.000281
    1389       2891.67      0.000281
    1390       2893.75      0.000281
    1391       2895.83      0.000280
    1392       2897.92      0.000280
    1393       2900.00      0.000280
    1394       2902.08      0.000280
    1395       2904.17      0.000280
    1396       2906.25      0.000280
    1397       2908.33      0.000280
    1398       2910.42      0.000280
    1399       2912.50      0.000279
    1400       2914.58      0.000279
    1401       2916.67      0.000279
    1402       2918.75      0.000279
    1403       2920.83      0.000279
    1404       2922.92      0.000279
    1405       2925.00      0.000279
    1406       2927.08      0.000279
    1407       2929.17      0.000279
    1408       2931.25      0.000278
    1409       2933.33      0.000278
    1410       2935.42      0.000278
    1411       2937.50      0.000278
    1412       2939.58      0.000278
    1413       2941.67      0.000278
    1414       2943.75      0.000278
    1415       2945.83      0.000278
    1416       2947.92      0.000278
    1417       2950.00      0.000277
    1418       2952.08      0.000277
    1419       2954.17      0.000277
    1420       2956.25      0.000277
    1421       2958.33      0.000277
    1422       2960.42      0.000277
    1423       2962.50      0.000277
    1424       2964.58      0.000277
    1425       2966.67      0.000276
    1426       2968.75      0.000276
    1427       2970.83      0.000276
    1428       2972.92      0.000276
    1429       2975.00      0.000276
    1430       2977.08      0.000276
    1431       2979.17      0.000276
    1432       2981.25      0.000276
    1433       2983.33      0.000276
    1434       2985.42      0.000276
    1435       2987.50      0.000275
    1436       2989.58      0.000275
    1437       2991.67      0.000275
    1438       2993.75      0.000275
    1439       2995.83      0.000275
    1440       2997.92      0.000275
    1441       3000.00      0.000275
    1442       3002.08      0.000275
    1443       3004.17      0.000275
    1444       3006.25      0.000274
    1445       3008.33      0.000274
    1446       3010.42      0.000274
    1447       3012.50      0.000274
    1448       3014.58      0.000274
    1449       3016.67      0.000274
    1450       3018.75      0.000274
    1451       3020.83      0.000274
    1452       3022.92      0.000274
    1453       3025.00      0.000274
    1454       3027.08      0.000273
    1455       3029.17      0.000273
    1456       3031.25      0.000273
    1457       3033.33      0.000273
    1458       3035.42      0.000273
    1459       3037.50      0.000273
    1460       3039.58      0.000273
    1461       3041.67      0.000273
    1462       3043.75      0.000273
    1463       3045.83      0.000272
    1464       3047.92      0.000272
    1465       3050.00      0.000272
    1466       3052.08      0.000272
    1467       3054.17      0.000272
    1468       3056.25      0.000272
    1469       3058.33      0.000272
    1470       3060.42      0.000272
    1471       3062.50      0.000272
    1472       3064.58      0.000272
    1473       3066.67      0.000271
    1474       3068.75      0.000271
    1475       3070.83      0.000271
    1476       3072.92      0.000271
    1477       3075.00      0.000271
    1478       3077.08      0.000271
    1479       3079.17      0.000271
    1480       3081.25      0.000271
    1481       3083.33      0.000271
    1482       3085.42      0.000271
    1483       3087.50      0.000270
    1484       3089.58      0.000270
    1485       3091.67      0.000270
    1486       3093.75      0.000270
    1487       3095.83      0.000270
    1488       3097.92      0.000270
    1489       3100.00      0.000270
    1490       3102.08      0.000270
    1491       3104.17      0.000270
    1492       3106.25      0.000270
    1493       3108.33      0.000270
    1494       3110.42      0.000269
    1495       3112.50      0.000269
    1496       3114.58      0.000269
    1497       3116.67      0.000269
    1498       3118.75      0.000269
    1499       3120.83      0.000269
    1500       3122.92      0.000269
    1501       3125.00      0.000269
    1502       3127.08      0.000269
    1503       3129.17      0.000269
    1504       3131.25      0.000269
    1505       3133.33      0.000268
    1506       3135.42      0.000268
    1507       3137.50      0.000268
    1508       3139.58      0.000268
    1509       3141.67      0.000268
    1510       3143.75      0.000268
    1511       3145.83      0.000268
    1512       3147.92      0.000268
    1513       3150.00      0.000268
    1514       3152.08      0.000268
    1515       3154.17      0.000268
    1516       3156.25      0.000267
    1517       3158.33      0.000267
    1518       3160.42      0.000267
    1519       3162.50      0.000267
    1520       3164.58      0.000267
    1521       3166.67      0.000267
    1522       3168.75      0.000267
    1523       3170.83      0.000267
    1524       3172.92      0.000267
    1525       3175.00      0.000267
    1526       3177.08      0.000267
    1527       3179.17      0.000266
    1528       3181.25      0.000266
    1529       3183.33      0.000266
    1530       3185.42      0.000266
    1531       3187.50      0.000266
    1532       3189.58      0.000266
    1533       3191.67      0.000266
    1534       3193.75      0.000266
    1535       3195.83      0.000266
    1536       3197.92      0.000266
    1537       3200.00      0.000266
    1538       3202.08      0.000266
    1539       3204.17      0.000265
    1540       3206.25      0.000265
    1541       3208.33      0.000265
    1542       3210.42      0.000265
    1543       3212.50      0.000265
    1544       3214.58      0.000265
    1545       3216.67      0.000265
    1546       3218.75      0.000265
    1547       3220.83      0.000265
    1548       3222.92      0.000265
    1549       3225.00      0.000265
    1550       3227.08      0.000265
    1551       3229.17      0.000264
    1552       3231.25      0.000264
    1553       3233.33      0.000264
    1554       3235.42      0.000264
    1555       3237.50      0.000264
    1556       3239.58      0.000264
    1557       3241.67      0.000264
    1558       3243.75      0.000264
    1559       3245.83      0.000264
    1560       3247.92      0.000264
    1561       3250.00      0.000264
    1562       3252.08      0.000264
    1563       3254.17      0.000264
    1564       3256.25      0.000263
    1565       3258.33      0.000263
    1566       3260.42      0.000263
    1567       3262.50      0.000263
    1568       3264.58      0.000263
    1569       3266.67      0.000263
    1570       3268.75      0.000263
    1571       3270.83      0.000263
    1572       3272.92      0.000263
    1573       3275.00      0.000263
    1574       3277.08      0.000263
    1575       3279.17      0.000263
    1576       3281.25      0.000263
    1577       3283.33      0.000262
    1578       3285.42      0.000262
    1579       3287.50      0.000262
    1580       3289.58      0.000262
    1581       3291.67      0.000262
    1582       3293.75      0.000262
    1583       3295.83      0.000262
    1584       3297.92      0.000262
    1585       3300.00      0.000262
    1586       3302.08      0.000262
    1587       3304.17      0.000262
    1588       3306.25      0.000262
    1589       3308.33      0.000262
    1590       3310.42      0.000261
    1591       3312.50      0.000261
    1592       3314.58      0.000261
    1593       3316.67      0.000261
    1594       3318.75      0.000261
    1595       3320.83      0.000261
    1596       3322.92      0.000261
    1597       3325.00      0.000261
    1598       3327.08      0.000261
    1599       3329.17      0.000261
    1600       3331.25      0.000261
    1601       3333.33      0.000261
    1602       3335.42      0.000261
    1603       3337.50      0.000261
    1604       3339.58      0.000260
    1605       3341.67      0.000260
    1606       3343.75      0.000260
    1607       3345.83      0.000260
    1608       3347.92      0.000260
    1609       3350.00      0.000260
    1610       3352.08      0.000260
    1611       3354.17      0.000260
    1612       3356.25      0.000260
    1613       3358.33      0.000260
    1614       3360.42      0.000260
    1615       3362.50      0.000260
    1616       3364.58      0.000260
    1617       3366.67      0.000260
    1618       3368.75      0.000260
    1619       3370.83      0.000259
    1620       3372.92      0.000259
    1621       3375.00      0.000259
    1622       3377.08      0.000259
    1623       3379.17      0.000259
    1624       3381.25      0.000259
    1625       3383.33      0.000259
    1626       3385.42      0.000259
    1627       3387.50      0.000259
    1628       3389.58      0.000259
    1629       3391.67      0.000259
    1630       3393.75      0.000259
    1631       3395.83      0.000259
    1632       3397.92      0.000259
    1633       3400.00      0.000259
    1634       3402.08      0.000258
    1635       3404.17      0.000258
    1636       3406.25      0.000258
    1637       3408.33      0.000258
    1638       3410.42      0.000258
    1639       3412.50      0.000258
    1640       3414.58      0.000258
    1641       3416.67      0.000258
    1642       3418.75      0.000258
    1643       3420.83      0.000258
    1644       3422.92      0.000258
    1645       3425.00      0.000258
    1646       3427.08      0.000258
    1647       3429.17      0.000258
    1648       3431.25      0.000258
    1649       3433.33      0.000258
    1650       3435.42      0.000257
    1651       3437.50      0.000257
    1652       3439.58      0.000257
    1653       3441.67      0.000257
    1654       3443.75      0.000257
    1655       3445.83      0.000257
    1656       3447.92      0.000257
    1657       3450.00      0.000257
    1658       3452.08      0.000257
    1659       3454.17      0.000257
    1660       3456.25      0.000257
    1661       3458.33      0.000257
    1662       3460.42      0.000257
    1663       3462.50      0.000257
    1664       3464.58      0.000257
    1665       3466.67      0.000257
    1666       3468.75      0.000257
    1667       3470.83      0.000256
    1668       3472.92      0.000256
    1669       3475.00      0.000256
    1670       3477.08      0.000256
    1671       3479.17      0.000256
    1672       3481.25      0.000256
    1673       3483.33      0.000256
    1674       3485.42      0.000256
    1675       3487.50      0.000256
    1676       3489.58      0.000256
    1677       3491.67      0.000256
    1678       3493.75      0.000256
    1679       3495.83      0.000256
    1680       3497.92      0.000256
    1681       3500.00      0.000256
    1682       3502.08      0.000256
    1683       3504.17      0.000256
    1684       3506.25      0.000256
    1685       3508.33      0.000255
    1686       3510.42      0.000255
    1687       3512.50      0.000255
    1688       3514.58      0.000255
    1689       3516.67      0.000255
    1690       3518.75      0.000255
    1691       3520.83      0.000255
    1692       3522.92      0.000255
    1693       3525.00      0.000255
    1694       3527.08      0.000255
    1695       3529.17      0.000255
    1696       3531.25      0.000255
    1697       3533.33      0.000255
    1698       3535.42      0.000255
    1699       3537.50      0.000255
    1700       3539.58      0.000255
    1701       3541.67      0.000255
    1702       3543.75      0.000255
    1703       3545.83      0.000255
    1704       3547.92      0.000254
    1705       3550.00      0.000254
    1706       3552.08      0.000254
    1707       3554.17      0.000254
    1708       3556.25      0.000254
    1709       3558.33      0.000254
    1710       3560.42      0.000254
    1711       3562.50      0.000254
    1712       3564.58      0.000254
    1713       3566.67      0.000254
    1714       3568.75      0.000254
    1715       3570.83      0.000254
    1716       3572.92      0.000254
    1717       3575.00      0.000254
    1718       3577.08      0.000254
    1719       3579.17      0.000254
    1720       3581.25      0.000254
    1721       3583.33      0.000254
    1722       3585.42      0.000254
    1723       3587.50      0.000254
    1724       3589.58      0.000253
    1725       3591.67      0.000253
    1726       3593.75      0.000253
    1727       3595.83      0.000253
    1728       3597.92      0.000253
    1729       3600.00      0.000253
    1730       3602.08      0.000253
    1731       3604.17      0.000253
    1732       3606.25      0.000253
    1733       3608.33      0.000253
    1734       3610.42      0.000253
    1735       3612.50      0.000253
    1736       3614.58      0.000253
    1737       3616.67      0.000253
    1738       3618.75      0.000253
    1739       3620.83      0.000253
    1740       3622.92      0.000253
    1741       3625.00      0.000253
    1742       3627.08      0.000253
    1743       3629.17      0.000253
    1744       3631.25      0.000253
    1745       3633.33      0.000253
    1746       3635.42      0.000253
    1747       3637.50      0.000252
    1748       3639.58      0.000252
    1749       3641.67      0.000252
    1750       3643.75      0.000252
    1751       3645.83      0.000252
    1752       3647.92      0.000252
    1753       3650.00      0.000252
    1754       3652.08      0.000252
    1755       3654.17      0.000252
    1756       3656.25      0.000252
    1757       3658.33      0.000252
    1758       3660.42      0.000252
    1759       3662.50      0.000252
    1760       3664.58      0.000252
    1761       3666.67      0.000252
    1762       3668.75      0.000252
    1763       3670.83      0.000252
    1764       3672.92      0.000252
    1765       3675.00      0.000252
    1766       3677.08      0.000252
    1767       3679.17      0.000252
    1768       3681.25      0.000252
    1769       3683.33      0.000252
    1770       3685.42      0.000252
    1771       3687.50      0.000251
    1772       3689.58      0.000251
    1773       3691.67      0.000251
    1774       3693.75      0.000251
    1775       3695.83      0.000251
    1776       3697.92      0.000251
    1777       3700.00      0.000251
    1778       3702.08      0.000251
    1779       3704.17      0.000251
    1780       3706.25      0.000251
    1781       3708.33      0.000251
    1782       3710.42      0.000251
    1783       3712.50      0.000251
    1784       3714.58      0.000251
    1785       3716.67      0.000251
    1786       3718.75      0.000251
    1787       3720.83      0.000251
    1788       3722.92      0.000251
    1789       3725.00      0.000251
    1790       3727.08      0.000251
    1791       3729.17      0.000251
    1792       3731.25      0.000251
    1793       3733.33      0.000251
    1794       3735.42      0.000251
    1795       3737.50      0.000251
    1796       3739.58      0.000251
    1797       3741.67      0.000251
    1798       3743.75      0.000251
    1799       3745.83      0.000250
    1800       3747.92      0.000250
    1801       3750.00      0.000250
    1802       3752.08      0.000250
    1803       3754.17      0.000250
    1804       3756.25      0.000250
    1805       3758.33      0.000250
    1806       3760.42      0.000250
    1807       3762.50      0.000250
    1808       3764.58      0.000250
    1809       3766.67      0.000250
    1810       3768.75      0.000250
    1811       3770.83      0.000250
    1812       3772.92      0.000250
    1813       3775.00      0.000250
    1814       3777.08      0.000250
    1815       3779.17      0.000250
    1816       3781.25      0.000250
    1817       3783.33      0.000250
    1818       3785.42      0.000250
    1819       3787.50      0.000250
    1820       3789.58      0.000250
    1821       3791.67      0.000250
    1822       3793.75      0.000250
    1823       3795.83      0.000250
    1824       3797.92      0.000250
    1825       3800.00      0.000250
    1826       3802.08      0.000250
    1827       3804.17      0.000250
    1828       3806.25      0.000250
    1829       3808.33      0.000250
    1830       3810.42      0.000250
    1831       3812.50      0.000250
    1832       3814.58      0.000249
    1833       3816.67      0.000249
    1834       3818.75      0.000249
    1835       3820.83      0.000249
    1836       3822.92      0.000249
    1837       3825.00      0.000249
    1838       3827.08      0.000249
    1839       3829.17      0.000249
    1840       3831.25      0.000249
    1841       3833.33      0.000249
    1842       3835.42      0.000249
    1843       3837.50      0.000249
    1844       3839.58      0.000249
    1845       3841.67      0.000249
    1846       3843.75      0.000249
    1847       3845.83      0.000249
    1848       3847.92      0.000249
    1849       3850.00      0.000249
    1850       3852.08      0.000249
    1851       3854.17      0.000249
    1852       3856.25      0.000249
    1853       3858.33      0.000249
    1854       3860.42      0.000249
    1855       3862.50      0.000249
    1856       3864.58      0.000249
    1857       3866.67      0.000249
    1858       3868.75      0.000249
    1859       3870.83      0.000249
    1860       3872.92      0.000249
    1861       3875.00      0.000249
    1862       3877.08      0.000249
    1863       3879.17      0.000249
    1864       3881.25      0.000249
    1865       3883.33      0.000249
    1866       3885.42      0.000249
    1867       3887.50      0.000249
    1868       3889.58      0.000249
    1869       3891.67      0.000249
    1870       3893.75      0.000249
    1871       3895.83      0.000249
    1872       3897.92      0.000248
    1873       3900.00      0.000248
    1874       3902.08      0.000248
    1875       3904.17      0.000248
    1876       3906.25      0.000248
    1877       3908.33      0.000248
    1878       3910.42      0.000248
    1879       3912.50      0.000248
    1880       3914.58      0.000248
    1881       3916.67      0.000248
    1882       3918.75      0.000248
    1883       3920.83      0.000248
    1884       3922.92      0.000248
    1885       3925.00      0.000248
    1886       3927.08      0.000248
    1887       3929.17      0.000248
    1888       3931.25      0.000248
    1889       3933.33      0.000248
    1890       3935.42      0.000248
    1891       3937.50      0.000248
    1892       3939.58      0.000248
    1893       3941.67      0.000248
    1894       3943.75      0.000248
    1895       3945.83      0.000248
    1896       3947.92      0.000248
    1897       3950.00      0.000248
    1898       3952.08      0.000248
    1899       3954.17      0.000248
    1900       3956.25      0.000248
    1901       3958.33      0.000248
    1902       3960.42      0.000248
    1903       3962.50      0.000248
    1904       3964.58      0.000248
    1905       3966.67      0.000248
    1906       3968.75      0.000248
    1907       3970.83      0.000248
    1908       3972.92      0.000248
    1909       3975.00      0.000248
    1910       3977.08      0.000248
    1911       3979.17      0.000248
    1912       3981.25      0.000248
    1913       3983.33      0.000248
    1914       3985.42      0.000248
    1915       3987.50      0.000248
    1916       3989.58      0.000248
    1917       3991.67      0.000248
    1918       3993.75      0.000248
    1919       3995.83      0.000248
    1920       3997.92      0.000248
    1921       4000.00      0.000248
    1922       4002.08      0.000248
    1923       4004.17      0.000248
    1924       4006.25      0.000248
    1925       4008.33      0.000248
    1926       4010.42      0.000248
    1927       4012.50      0.000248
    1928       4014.58      0.000248
    1929       4016.67      0.000248
    1930       4018.75      0.000248
    1931       4020.83      0.000248
    1932       4022.92      0.000248
    1933       4025.00      0.000248
    1934       4027.08      0.000247
    1935       4029.17      0.000247
    1936       4031.25      0.000247
    1937       4033.33      0.000247
    1938       4035.42      0.000247
    1939       4037.50      0.000247
    1940       4039.58      0.000247
    1941       4041.67      0.000247
    1942       4043.75      0.000247
    1943       4045.83      0.000247
    1944       4047.92      0.000247
    1945       4050.00      0.000247
    1946       4052.08      0.000247
    1947       4054.17      0.000247
    1948       4056.25      0.000247
    1949       4058.33      0.000247
    1950       4060.42      0.000247
    1951       4062.50      0.000247
    1952       4064.58      0.000247
    1953       4066.67      0.000247
    1954       4068.75      0.000247
    1955       4070.83      0.000247
    1956       4072.92      0.000247
    1957       4075.00      0.000247
    1958       4077.08      0.000247
    1959       4079.17      0.000247
    1960       4081.25      0.000247
    1961       4083.33      0.000247
    1962       4085.42      0.000247
    1963       4087.50      0.000247
    1964       4089.58      0.000247
    1965       4091.67      0.000247
    1966       4093.75      0.000247
    1967       4095.83      0.000247
    1968       4097.92      0.000247
    1969       4100.00      0.000247
    1970       4102.08      0.000247
    1971       4104.17      0.000247
    1972       4106.25      0.000247
    1973       4108.33      0.000247
    1974       4110.42      0.000247
    1975       4112.50      0.000247
    1976       4114.58      0.000247
    1977       4116.67      0.000247
    1978       4118.75      0.000247
    1979       4120.83      0.000247
    1980       4122.92      0.000247
    1981       4125.00      0.000247
    1982       4127.08      0.000247
    1983       4129.17      0.000247
    1984       4131.25      0.000247
    1985       4133.33      0.000247
    1986       4135.42      0.000247
    1987       4137.50      0.000247
    1988       4139.58      0.000247
    1989       4141.67      0.000247
    1990       4143.75      0.000247
    1991       4145.83      0.000247
    1992       4147.92      0.000247
    1993       4150.00      0.000247
    1994       4152.08      0.000247
    1995       4154.17      0.000247
    1996       4156.25      0.000247
    1997       4158.33      0.000247
    1998       4160.42      0.000247
    1999       4162.50      0.000247
    2000       4164.58      0.000247
